File: samples/IR data/IR H2O/h2o all runs avg-composite.csv
wavelength_nm,intensity,source_count
22222.2,0.0976335,15
22075.1,0.280628,15
21929.8,-0.068088,15
21786.5,-0.0860538,15
21645,0.208079,15
21505.4,0.19168,15
21367.5,-0.622255,15
21231.4,0.106703,15
21097,0.430509,15
20964.4,-0.402144,15
20833.3,0.247881,15
20703.9,0.0539185,15
20576.1,-0.140616,15
20449.9,-0.225133,15
20325.2,0.126378,15
20202,0.0533784,15
20080.3,0.378382,15
19960.1,0.069958,15
19841.3,0.0615171,15
19723.9,-0.168036,15
19607.8,0.0945914,15
19493.2,0.291923,15
19379.8,0.171338,15
19267.8,0.220297,15
19157.1,0.903359,15
19047.6,-0.0789173,15
18939.4,-0.32764,15
18832.4,-0.100444,15
18726.6,-0.0820601,15
18622,-0.0676605,15
18518.5,0.00978536,15
18416.2,0.214574,15
18315,0.0909434,15
18214.9,-0.186323,15
18115.9,0.207026,15
18018,0.026181,15
17921.1,-0.225801,15
17825.3,-0.701629,15
17730.5,-0.100531,15
17636.7,-0.0427227,15
17543.9,8.92474,15
17452,-0.333775,15
17361.1,-0.29008,15
17271.2,-0.347155,15
17182.1,-0.0527464,15
17094,0.0122119,15
17006.8,-0.16187,15
16920.5,-0.508061,15
16835,0.0910144,15
16750.4,0.423942,15
16666.7,0.153995,15
16583.7,0.088604,15
16501.7,0.448992,15
16420.4,-0.2627,15
16339.9,-0.137758,15
16260.2,0.220007,15
16181.2,0.446498,15
16103.1,-0.505078,15
16025.6,0.0253387,15
15949,0.160047,15
15873,0.403386,15
15797.8,-0.172503,15
15723.3,-0.0940532,15
15649.5,0.268659,15
15576.3,0.224379,15
15503.9,0.173513,15
15432.1,0.385415,15
15361,0.237068,15
15290.5,0.070066,15
15220.7,-0.345391,15
15151.5,0.382969,15
15083,0.0334202,15
15015,0.0577195,15
14947.7,0.277721,15
14881,0.200238,15
14814.8,-0.27013,15
14749.3,0.639068,15
14684.3,-0.0959419,15
14619.9,-0.272025,15
14556,0.481794,15
14492.8,0.301703,15
14430,-0.0563986,15
14367.8,0.118766,15
14306.2,-0.161,15
14245,0.177808,15
14184.4,0.309514,15
14124.3,-0.358458,15
14064.7,-0.0748742,15
14005.6,-0.142666,15
13947,-0.49138,15
13888.9,-0.562605,15
13831.3,0.0228204,15
13774.1,0.113117,15
13717.4,-0.0133426,15
13661.2,0.105788,15
13605.4,0.0673146,15
13550.1,-0.0572533,15
13495.3,-0.160265,15
13440.9,0.094396,15
13386.9,-0.0785674,15
13333.3,0.222778,15
13280.2,0.42967,15
13227.5,0.246685,15
13175.2,-0.26158,15
13123.4,0.369307,15
13071.9,0.138935,15
13020.8,-0.393212,15
12970.2,-0.246132,15
12919.9,0.0891541,15
12870,0.238643,15
12820.5,0.15717,15
12771.4,-0.0573882,15
12722.6,0.136258,15
12674.3,0.108369,15
12626.3,-0.26636,15
12578.6,0.0606125,15
12531.3,0.0388838,15
12484.4,0.39665,15
12437.8,0.151678,15
12391.6,0.294793,15
12345.7,0.429719,15
12300.1,-0.057031,15
12254.9,-0.382917,15
12210,-0.106466,15
12165.5,0.158596,15
12121.2,-0.346615,15
12077.3,-0.450601,15
12033.7,0.155495,15
11990.4,0.674966,15
11947.4,0.112366,15
11904.8,0.204127,15
11862.4,-0.191621,15
11820.3,0.0643041,15
11778.6,-0.433423,15
11737.1,0.16589,15
11695.9,-0.358638,15
11655,-0.0820172,15
11614.4,0.139018,15
11574.1,0.0217985,15
11534,-0.13489,15
11494.3,-0.0697603,15
11454.8,-0.194624,15
11415.5,-0.0694332,15
11376.6,0.00155379,15
11337.9,0.0257866,15
11299.4,0.0377079,15
11261.3,-0.00904307,15
11223.3,0.0193779,15
11185.7,0.053,15
11148.3,0.0273275,15
11111.1,0.00722051,15
11074.2,0.00762634,15
11037.5,0.00913352,15
11001.1,0.0152633,15
10964.9,0.0142596,15
10929,0.0116504,15
10893.2,0.0105141,15
10857.8,0.013094,15
10822.5,0.012996,15
10787.5,0.00806443,15
10752.7,0.00444119,15
10718.1,0.00321015,15
10683.8,0.011743,15
10649.6,0.0104666,15
10615.7,0.010093,15
10582,0.00791479,15
10548.5,0.00652217,15
10515.2,0.00695778,15
10482.2,0.00747418,15
10449.3,0.00707347,15
10416.7,0.00703882,15
10384.2,0.0076422,15
10352,0.00828926,15
10319.9,0.00716717,15
10288.1,0.00663127,15
10256.4,0.00672647,15
10224.9,0.00790014,15
10193.7,0.00687828,15
10162.6,0.00630562,15
10131.7,0.00585675,15
10101,0.00614897,15
10070.5,0.00658094,15
10040.2,0.00557694,15
10010,0.00582919,15
9980.04,0.00649195,15
9950.25,0.0063078,15
9920.63,0.00568904,15
9891.2,0.00565366,15
9861.93,0.00573182,15
9832.84,0.0055233,15
9803.92,0.00545969,15
9775.17,0.00531997,15
9746.59,0.00530217,15
9718.17,0.00570369,15
9689.92,0.0055576,15
9661.84,0.00495363,15
9633.91,0.00502646,15
9606.15,0.0049738,15
9578.54,0.00522637,15
9551.1,0.0054548,15
9523.81,0.0050561,15
9496.68,0.00517112,15
9469.7,0.00510118,15
9442.87,0.00501889,15
9416.2,0.00482815,15
9389.67,0.0047495,15
9363.3,0.00463889,15
9337.07,0.00480864,15
9310.99,0.00483144,15
9285.05,0.00476748,15
9259.26,0.00476192,15
9233.61,0.0047005,15
9208.1,0.00461244,15
9182.74,0.00469164,15
9157.51,0.00444607,15
9132.42,0.0043616,15
9107.47,0.00430272,15
9082.65,0.00432038,15
9057.97,0.00416844,15
9033.42,0.00407225,15
9009.01,0.00413636,15
8984.73,0.00407783,15
8960.57,0.00394652,15
8936.55,0.00394368,15
8912.66,0.00392027,15
8888.89,0.00392923,15
8865.25,0.00386236,15
8841.73,0.00371631,15
8818.34,0.00379229,15
8795.07,0.00368721,15
8771.93,0.00368148,15
8748.91,0.00385669,15
8726,0.00361173,15
8703.22,0.00352709,15
8680.56,0.00354209,15
8658.01,0.00365887,15
8635.58,0.00360029,15
8613.26,0.00356515,15
8591.07,0.00358572,15
8568.98,0.00357673,15
8547.01,0.00357091,15
8525.15,0.00357691,15
8503.4,0.00357435,15
8481.76,0.00351318,15
8460.24,0.00349534,15
8438.82,0.00351577,15
8417.51,0.00346964,15
8396.31,0.00335866,15
8375.21,0.00339643,15
8354.22,0.00338789,15
8333.33,0.0033093,15
8312.55,0.00328881,15
8291.87,0.0032625,15
8271.3,0.00320427,15
8250.83,0.00321325,15
8230.45,0.00318404,15
8210.18,0.00318092,15
8190.01,0.00310229,15
8169.93,0.0030296,15
8149.96,0.00309087,15
8130.08,0.00314612,15
8110.3,0.00318131,15
8090.61,0.00312612,15
8071.03,0.00303558,15
8051.53,0.0030706,15
8032.13,0.00315239,15
8012.82,0.00295994,15
7993.61,0.00297439,15
7974.48,0.00305294,15
7955.45,0.00307071,15
7936.51,0.0031998,15
7917.66,0.0031353,15
7898.89,0.00303862,15
7880.22,0.00301859,15
7861.64,0.00309244,15
7843.14,0.00291101,15
7824.73,0.0029836,15
7806.4,0.00291652,15
7788.16,0.00287903,15
7770.01,0.00289655,15
7751.94,0.00288747,15
7733.95,0.00292262,15
7716.05,0.00285586,15
7698.23,0.00290243,15
7680.49,0.00283244,15
7662.84,0.00273933,15
7645.26,0.00287966,15
7627.77,0.00288223,15
7610.35,0.00283861,15
7593.01,0.00292639,15
7575.76,0.0032401,15
7558.58,0.00289701,15
7541.48,0.00294343,15
7524.45,0.00293182,15
7507.51,0.00282137,15
7490.64,0.00273335,15
7473.84,0.00261276,15
7457.12,0.00292663,15
7440.48,0.00279497,15
7423.9,0.00293822,15
7407.41,0.00313725,15
7390.98,0.00292071,15
7374.63,0.00299117,15
7358.35,0.00252593,15
7342.14,0.00243986,15
7326.01,0.00273583,15
7309.94,0.00299776,15
7293.95,0.00278395,15
7278.02,0.00302892,15
7262.16,0.00315861,15
7246.38,0.00288065,15
7230.66,0.00277525,15
7215.01,0.0024261,15
7199.42,0.00223544,15
7183.91,0.0023695,15
7168.46,0.00178682,15
7153.08,0.00225241,15
7137.76,0.0023869,15
7122.51,0.00263897,15
7107.32,0.00265002,15
7092.2,0.00284253,15
7077.14,0.0027619,15
7062.15,0.00235789,15
7047.22,0.0034458,15
7032.35,0.00318988,15
7017.54,0.00322432,15
7002.8,0.00263067,15
6988.12,0.00302455,15
6973.5,0.00284149,15
6958.94,0.00330064,15
6944.44,0.00253494,15
6930.01,0.00265001,15
6915.63,0.00263486,15
6901.31,0.00219016,15
6887.05,0.00241027,15
6872.85,0.00297549,15
6858.71,0.00297138,15
6844.63,0.00254235,15
6830.6,0.00211505,15
6816.63,0.00236189,15
6802.72,0.00210452,15
6788.87,0.000234283,15
6775.07,0.00198093,15
6761.33,0.00259343,15
6747.64,0.00313511,15
6734.01,0.00264221,15
6720.43,0.00261559,15
6706.91,0.00210662,15
6693.44,0.00201994,15
6680.03,0.00193503,15
6666.67,0.00317464,15
6653.36,0.00254529,15
6640.11,0.00199964,15
6626.91,0.00237518,15
6613.76,0.00140596,15
6600.66,0.00185788,15
6587.62,0.00255806,15
6574.62,0.000980682,15
6561.68,0.00140284,15
6548.79,0.00170922,15
6535.95,0.00267092,15
6523.16,0.00270206,15
6510.42,0.00246821,15
6497.73,0.00281782,15
6485.08,0.00180766,15
6472.49,0.00150633,15
6459.95,0.00160992,15
6447.45,0.00198592,15
6435.01,0.000846286,15
6422.61,0.00318947,15
6410.26,0.00143058,15
6397.95,0.00287762,15
6385.7,0.00345756,15
6373.49,0.00384522,15
6361.32,0.00298538,15
6349.21,0.00363159,15
6337.14,0.00438093,15
6325.11,0.00318334,15
6313.13,0.00310653,15
6301.2,0.00319776,15
6289.31,0.00352935,15
6277.46,0.00385826,15
6265.66,0.00413313,15
6253.91,0.00344633,15
6242.2,0.00413687,15
6230.53,0.00413685,15
6218.91,0.00463229,15
6207.32,0.00409259,15
6195.79,0.0035404,15
6184.29,0.00418845,15
6172.84,0.00367426,15
6161.43,0.00431277,15
6150.06,0.00399367,15
6138.74,0.00444696,15
6127.45,0.0035932,15
6116.21,0.0049231,15
6105.01,0.00545287,15
6093.85,0.00407943,15
6082.73,0.00365511,15
6071.65,0.00366892,15
6060.61,0.00435819,15
6049.61,0.00519885,15
6038.65,0.00403305,15
6027.73,0.00326977,15
6016.85,0.00409328,15
6006.01,0.00362381,15
5995.2,0.00466973,15
5984.44,0.00496597,15
5973.72,0.00399606,15
5963.03,0.00369151,15
5952.38,0.00360352,15
5941.77,0.00361628,15
5931.2,0.00411917,15
5920.66,0.00367627,15
5910.17,0.00336021,15
5899.71,0.00509574,15
5889.28,0.00479332,15
5878.89,0.00536938,15
5868.54,0.00342945,15
5858.23,0.00432265,15
5847.95,0.00361084,15
5837.71,0.00303029,15
5827.51,0.00237777,15
5817.34,0.0036042,15
5807.2,0.00303932,15
5797.1,0.003307,15
5787.04,0.00324861,15
5777.01,0.00391504,15
5767.01,0.00242676,15
5757.05,0.0030778,15
5747.13,0.0029303,15
5737.23,0.00364473,15
5727.38,0.00440495,15
5717.55,0.00433682,15
5707.76,0.00215076,15
5698.01,0.00236854,15
5688.28,0.00246784,15
5678.59,0.00232471,15
5668.93,0.00240115,15
5659.31,0.00269745,15
5649.72,0.00296643,15
5640.16,0.00309564,15
5630.63,0.00329463,15
5621.14,0.00361118,15
5611.67,0.00417521,15
5602.24,0.0029863,15
5592.84,0.00277819,15
5583.47,0.00243589,15
5574.14,0.00268304,15
5564.83,0.00366445,15
5555.56,0.00355382,15
5546.31,0.002937,15
5537.1,0.00311128,15
5527.92,0.00350137,15
5518.76,0.00389373,15
5509.64,0.00309256,15
5500.55,0.00300534,15
5491.49,0.00299688,15
5482.46,0.00321586,15
5473.45,0.00337953,15
5464.48,0.00422853,15
5455.54,0.00303401,15
5446.62,0.00337131,15
5437.74,0.00332802,15
5428.88,0.00312089,15
5420.05,0.00431966,15
5411.26,0.0034449,15
5402.49,0.00307838,15
5393.74,0.00314864,15
5385.03,0.00318663,15
5376.34,0.00328545,15
5367.69,0.00308696,15
5359.06,0.00376266,15
5350.45,0.00434706,15
5341.88,0.003186,15
5333.33,0.00309888,15
5324.81,0.00305543,15
5316.32,0.00311048,15
5307.86,0.00338556,15
5299.42,0.00327143,15
5291.01,0.00355753,15
5282.62,0.00325097,15
5274.26,0.00368429,15
5265.93,0.00322445,15
5257.62,0.00319568,15
5249.34,0.00331564,15
5241.09,0.00370499,15
5232.86,0.00372612,15
5224.66,0.0030791,15
5216.48,0.0032445,15
5208.33,0.00328205,15
5200.21,0.00381685,15
5192.11,0.00330966,15
5184.03,0.00325091,15
5175.98,0.00329762,15
5167.96,0.0032511,15
5159.96,0.003181,15
5151.98,0.0034385,15
5144.03,0.0040187,15
5136.11,0.00363545,15
5128.21,0.00327178,15
5120.33,0.00331543,15
5112.47,0.00337996,15
5104.65,0.00328343,15
5096.84,0.00334207,15
5089.06,0.00339472,15
5081.3,0.00377536,15
5073.57,0.00334188,15
5065.86,0.00330106,15
5058.17,0.00334193,15
5050.51,0.00334504,15
5042.86,0.00332452,15
5035.25,0.00332166,15
5027.65,0.00345931,15
5020.08,0.00363735,15
5012.53,0.0034561,15
5005.01,0.00340074,15
4997.5,0.00340664,15
4990.02,0.00333927,15
4982.56,0.00335978,15
4975.12,0.00340966,15
4967.71,0.0033803,15
4960.32,0.00352953,15
4952.95,0.0035853,15
4945.6,0.00338637,15
4938.27,0.00343009,15
4930.97,0.00346227,15
4923.68,0.00342138,15
4916.42,0.00340982,15
4909.18,0.00343325,15
4901.96,0.00347993,15
4894.76,0.00350929,15
4887.59,0.0034684,15
4880.43,0.0034859,15
4873.29,0.00348576,15
4866.18,0.00346839,15
4859.09,0.00342475,15
4852.01,0.00349781,15
4844.96,0.0035415,15
4837.93,0.00355033,15
4830.92,0.00345982,15
4823.93,0.00351525,15
4816.96,0.00350368,15
4810,0.00345695,15
4803.07,0.00349189,15
4796.16,0.00349774,15
4789.27,0.00353591,15
4782.4,0.00353885,15
4775.55,0.00350083,15
4768.72,0.00356809,15
4761.9,0.00353894,15
4755.11,0.00355051,15
4748.34,0.00356515,15
4741.58,0.00355059,15
4734.85,0.00354188,15
4728.13,0.00355647,15
4721.44,0.00354772,15
4714.76,0.00356826,15
4708.1,0.00361482,15
4701.46,0.00359447,15
4694.84,0.00357697,15
4688.23,0.00357116,15
4681.65,0.00360911,15
4675.08,0.0036004,15
4668.53,0.00356532,15
4662,0.0035917,15
4655.49,0.00362085,15
4649,0.00360037,15
4642.53,0.00360046,15
4636.07,0.00363844,15
4629.63,0.00362666,15
4623.21,0.00357988,15
4616.81,0.00359462,15
4610.42,0.00363846,15
4604.05,0.00364997,15
4597.7,0.00363542,15
4591.37,0.00365007,15
4585.05,0.00364426,15
4578.75,0.00361793,15
4572.47,0.00359172,15
4566.21,0.00359181,15
4559.96,0.00362382,15
4553.73,0.00365868,15
4547.52,0.00369677,15
4541.33,0.00365298,15
4535.15,0.00364124,15
4528.99,0.00367928,15
4522.84,0.00369678,15
4516.71,0.00365298,15
4510.6,0.00362672,15
4504.5,0.00364418,15
4498.43,0.00367045,15
4492.36,0.00366165,15
4486.32,0.0036704,15
4480.29,0.00366447,15
4474.27,0.00362362,15
4468.28,0.003647,15
4462.29,0.00367625,15
4456.33,0.00368792,15
4450.38,0.00369372,15
4444.44,0.0036675,15
4438.53,0.00371429,15
4432.62,0.00373769,15
4426.74,0.00373176,15
4420.87,0.00371145,15
4415.01,0.00368223,15
4409.17,0.00369974,15
4403.35,0.0037348,15
4397.54,0.00374651,15
4391.74,0.00376102,15
4385.96,0.00374643,15
4380.2,0.00373183,15
4374.45,0.00369088,15
4368.72,0.00371721,15
4363,0.00368521,15
4357.3,0.003659,15
4351.61,0.00359774,15
4345.94,0.00353658,15
4340.28,0.00353368,15
4334.63,0.00348707,15
4329,0.00345498,15
4323.39,0.00340259,15
4317.79,0.00338813,15
4312.2,0.00330071,15
4306.63,0.00325147,15
4301.08,0.0033047,15
4295.53,0.00343625,15
4290,0.0034977,15
4284.49,0.00353835,15
4278.99,0.00343886,15
4273.5,0.00320852,15
4268.03,0.003334,15
4262.57,0.00351748,15
4257.13,0.00353498,15
4251.7,0.00385281,15
4246.28,0.00368041,15
4240.88,0.00340931,15
4235.49,0.00353133,15
4230.12,0.00376496,15
4224.76,0.00367156,15
4219.41,0.00371218,15
4214.08,0.00379067,15
4208.75,0.0038432,15
4203.45,0.00371502,15
4198.15,0.00364495,15
4192.87,0.00368832,15
4187.6,0.00378747,15
4182.35,0.00384588,15
4177.11,0.003878,15
4171.88,0.0038459,15
4166.67,0.00387515,15
4161.46,0.00389267,15
4156.28,0.00388677,15
4151.1,0.0038751,15
4145.94,0.0038547,15
4140.79,0.00384876,15
4135.65,0.0038751,15
4130.52,0.00391021,15
4125.41,0.00389861,15
4120.31,0.00389271,15
4115.23,0.00391021,15
4110.15,0.00390434,15
4105.09,0.00393945,15
4100.04,0.00391028,15
4095,0.00389275,15
4089.98,0.00392791,15
4084.97,0.0039689,15
4079.97,0.00391019,15
4074.98,0.00390738,15
4070,0.00394563,15
4065.04,0.00391922,15
4060.09,0.00394548,15
4055.15,0.00393373,15
4050.22,0.00396304,15
4045.31,0.00401281,15
4040.4,0.00397465,15
4035.51,0.00397493,15
4030.63,0.00395157,15
4025.76,0.00393102,15
4020.91,0.00393696,15
4016.06,0.00397485,15
4011.23,0.00396034,15
4006.41,0.00396324,15
4001.6,0.00399832,15
3996.8,0.00398079,15
3992.02,0.00400721,15
3987.24,0.00401014,15
3982.48,0.00401591,15
3977.72,0.00405399,15
3972.98,0.0040219,15
3968.25,0.00400734,15
3963.54,0.00402766,15
3958.83,0.00401315,15
3954.13,0.00400734,15
3949.45,0.00403071,15
3944.77,0.00406584,15
3940.11,0.0040424,15
3935.46,0.00404536,15
3930.82,0.00405993,15
3926.19,0.00402789,15
3921.57,0.00408057,15
3916.96,0.00408357,15
3912.36,0.00407482,15
3907.78,0.00408368,15
3903.2,0.00410719,15
3898.64,0.00412458,15
3894.08,0.00413046,15
3889.54,0.00412172,15
3885,0.00410124,15
3880.48,0.00412189,15
3875.97,0.00411318,15
3871.47,0.00413937,15
3866.98,0.00412196,15
3862.5,0.00415409,15
3858.02,0.00415985,15
3853.56,0.00411901,15
3849.11,0.00411315,15
3844.68,0.004125,15
3840.25,0.00417175,15
3835.83,0.00414555,15
3831.42,0.00414546,15
3827.02,0.00417189,15
3822.63,0.0041835,15
3818.25,0.00419245,15
3813.88,0.00418675,15
3809.52,0.00416042,15
3805.18,0.00417493,15
3800.84,0.00417498,15
3796.51,0.00419846,15
3792.19,0.00421597,15
3787.88,0.00421021,15
3783.58,0.00421026,15
3779.29,0.00425998,15
3775.01,0.00423385,15
3770.74,0.00423973,15
3766.48,0.00423973,15
3762.23,0.00424568,15
3757.99,0.00425151,15
3753.75,0.00425756,15
3749.53,0.00425173,15
3745.32,0.00424292,15
3741.11,0.00425768,15
3736.92,0.00425177,15
3732.74,0.00427529,15
3728.56,0.0042694,15
3724.39,0.00432203,15
3720.24,0.00431341,15
3716.09,0.00426364,15
3711.95,0.00431341,15
3707.82,0.00433397,15
3703.7,0.00430478,15
3699.59,0.0043106,15
3695.49,0.00433412,15
3691.4,0.00432261,15
3687.32,0.00432275,15
3683.24,0.00436671,15
3679.18,0.00436673,15
3675.12,0.00437556,15
3671.07,0.00436089,15
3667.03,0.00437849,15
3663,0.00436413,15
3658.98,0.00437288,15
3654.97,0.00440794,15
3650.97,0.00443146,15
3646.97,0.004455,15
3642.99,0.00440814,15
3639.01,0.00440231,15
3635.04,0.00444344,15
3631.08,0.00446394,15
3627.13,0.00443182,15
3623.19,0.00439976,15
3619.25,0.00441163,15
3615.33,0.00441744,15
3611.41,0.00445556,15
3607.5,0.00444686,15
3603.6,0.00447329,15
3599.71,0.00448516,15
3595.83,0.00452907,15
3591.95,0.0044968,15
3588.09,0.00448242,15
3584.23,0.00448248,15
3580.38,0.00450902,15
3576.54,0.00450617,15
3572.7,0.00452677,15
3568.88,0.00452699,15
3565.06,0.00450062,15
3561.25,0.00451521,15
3557.45,0.00455337,15
3553.66,0.00457107,15
3549.88,0.00455655,15
3546.1,0.00456838,15
3542.33,0.00461824,15
3538.57,0.00461248,15
3534.82,0.00458034,15
3531.07,0.00454823,15
3527.34,0.00459823,15
3523.61,0.00464816,15
3519.89,0.00465708,15
3516.17,0.00464536,15
3512.47,0.00460451,15
3508.77,0.0045489,15
3505.08,0.00453425,15
3501.4,0.00461053,15
3497.73,0.00464585,15
3494.06,0.00467256,15
3490.4,0.00473117,15
3486.75,0.0047284,15
3483.11,0.00472562,15
3479.47,0.00472016,15
3475.84,0.00469683,15
3472.22,0.00470583,15
3468.61,0.00477617,15
3465,0.00475002,15
3461.41,0.00479129,15
3457.81,0.00478273,15
3454.23,0.00483558,15
3450.66,0.00482695,15
3447.09,0.00485044,15
3443.53,0.00489747,15
3439.97,0.00480979,15
3436.43,0.0048657,15
3432.89,0.00481595,15
3429.36,0.00476355,15
3425.83,0.00474878,15
3422.31,0.00471958,15
3418.8,0.00475807,15
3415.3,0.00477295,15
3411.8,0.00481137,15
3408.32,0.00485867,15
3404.83,0.00486223,15
3401.36,0.0049358,15
3397.89,0.00499184,15
3394.43,0.00502423,15
3390.98,0.00499245,15
3387.53,0.00506597,15
3384.09,0.00511023,15
3380.66,0.00509002,15
3377.24,0.00508748,15
3373.82,0.0051434,15
3370.41,0.00516433,15
3367,0.00515601,15
3363.61,0.00516249,15
3360.22,0.00521274,15
3356.83,0.00520139,15
3353.45,0.00518125,15
3350.08,0.00524018,15
3346.72,0.00527895,15
3343.36,0.00530855,15
3340.01,0.00535328,15
3336.67,0.00530679,15
3333.33,0.0052866,15
3330,0.00539293,15
3326.68,0.00542876,15
3323.36,0.00542346,15
3320.05,0.00553331,15
3316.75,0.00544595,15
3313.45,0.00536096,15
3310.16,0.00548431,15
3306.88,0.00560836,15
3303.6,0.00561512,15
3300.33,0.00567203,15
3297.07,0.00579692,15
3293.81,0.00571454,15
3290.56,0.00570851,15
3287.31,0.00573293,15
3284.07,0.00576295,15
3280.84,0.0058026,15
3277.61,0.00586495,15
3274.39,0.00582425,15
3271.18,0.00593511,15
3267.97,0.00592023,15
3264.77,0.00595657,15
3261.58,0.00611499,15
3258.39,0.0060237,15
3255.21,0.00598271,15
3252.03,0.00603386,15
3248.86,0.0061063,15
3245.7,0.00625815,15
3242.54,0.00620536,15
3239.39,0.00618268,15
3236.25,0.00620479,15
3233.11,0.00622627,15
3229.97,0.00639105,15
3226.85,0.0063541,15
3223.73,0.00653948,15
3220.61,0.00647379,15
3217.5,0.00648083,15
3214.4,0.00656758,15
3211.3,0.00659654,15
3208.21,0.00677035,15
3205.13,0.00678886,15
3202.05,0.00684385,15
3198.98,0.00682429,15
3195.91,0.00679879,15
3192.85,0.00689206,15
3189.79,0.00694816,15
3186.74,0.00690111,15
3183.7,0.00698277,15
3180.66,0.00704071,15
3177.63,0.00711336,15
3174.6,0.00710671,15
3171.58,0.0071656,15
3168.57,0.00723198,15
3165.56,0.00726086,15
3162.56,0.00730771,15
3159.56,0.00738971,15
3156.57,0.0074217,15
3153.58,0.00750993,15
3150.6,0.00757136,15
3147.62,0.00769292,15
3144.65,0.00781712,15
3141.69,0.00769695,15
3138.73,0.00781571,15
3135.78,0.00777882,15
3132.83,0.00781401,15
3129.89,0.00789638,15
3126.95,0.00807669,15
3124.02,0.00803276,15
3121.1,0.00804005,15
3118.18,0.00809878,15
3115.26,0.00827152,15
3112.36,0.00828321,15
3109.45,0.00833973,15
3106.55,0.00836179,15
3103.66,0.00840616,15
3100.78,0.00837711,15
3097.89,0.00846317,15
3095.02,0.00852156,15
3092.15,0.00856543,15
3089.28,0.00861466,15
3086.42,0.00860136,15
3083.56,0.00864776,15
3080.71,0.00882389,15
3077.87,0.00871025,15
3075.03,0.00875358,15
3072.2,0.00889648,15
3069.37,0.00881691,15
3066.54,0.00875951,15
3063.73,0.00879971,15
3060.91,0.00888052,15
3058.1,0.00884888,15
3055.3,0.00896225,15
3052.5,0.00907509,15
3049.71,0.00899757,15
3046.92,0.00899147,15
3044.14,0.00903107,15
3041.36,0.0090713,15
3038.59,0.00908022,15
3035.82,0.00909413,15
3033.06,0.00912424,15
3030.3,0.00919603,15
3027.55,0.00918875,15
3024.8,0.00914548,15
3022.06,0.00927026,15
3019.32,0.00929753,15
3016.59,0.00936395,15
3013.86,0.00932066,15
3011.14,0.00929842,15
3008.42,0.0093779,15
3005.71,0.00943287,15
3003,0.00945727,15
3000.3,0.00941105,15
2997.6,0.00948489,15
2994.91,0.0095404,15
2992.22,0.00950585,15
2989.54,0.00953681,15
2986.86,0.00959772,15
2984.18,0.00959654,15
2981.51,0.00963928,15
2978.85,0.00966817,15
2976.19,0.00966934,15
2973.54,0.00973344,15
2970.89,0.00991982,15
2968.24,0.00977732,15
2965.6,0.00970937,15
2962.96,0.00975954,15
2960.33,0.00978707,15
2957.7,0.00973177,15
2955.08,0.0097601,15
2952.47,0.00980768,15
2949.85,0.00973684,15
2947.24,0.00989102,15
2944.64,0.00980632,15
2942.04,0.00980937,15
2939.45,0.00974597,15
2936.86,0.00976529,15
2934.27,0.00974005,15
2931.69,0.00976523,15
2929.12,0.00971366,15
2926.54,0.00966905,15
2923.98,0.00979497,15
2921.41,0.00983258,15
2918.86,0.00961378,15
2916.3,0.00962135,15
2913.75,0.00959654,15
2911.21,0.00951294,15
2908.67,0.00945964,15
2906.13,0.00944528,15
2903.6,0.00951096,15
2901.07,0.00985789,15
2898.55,0.00959613,15
2896.03,0.00930247,15
2893.52,0.00931165,15
2891.01,0.00923061,15
2888.5,0.0094082,15
2886,0.0092361,15
2883.51,0.00914479,15
2881.01,0.00910752,15
2878.53,0.00917292,15
2876.04,0.00905132,15
2873.56,0.00889122,15
2871.09,0.00922761,15
2868.62,0.00881358,15
2866.15,0.00896159,15
2863.69,0.00869751,15
2861.23,0.00875234,15
2858.78,0.00872344,15
2856.33,0.0083912,15
2853.88,0.00900167,15
2851.44,0.00837812,15
2849,0.00877578,15
2846.57,0.00855047,15
2844.14,0.00825537,15
2841.72,0.00829123,15
2839.3,0.00826942,15
2836.88,0.00817682,15
2834.47,0.00851157,15
2832.06,0.00842121,15
2829.65,0.00784889,15
2827.25,0.00807361,15
2824.86,0.00780296,15
2822.47,0.00781898,15
2820.08,0.00789999,15
2817.7,0.00753154,15
2815.32,0.00809763,15
2812.94,0.00789071,15
2810.57,0.00751534,15
2808.2,0.00744364,15
2805.84,0.00724291,15
2803.48,0.0071404,15
2801.12,0.00640893,15
2798.77,0.00709599,15
2796.42,0.00774796,15
2794.08,0.00763771,15
2791.74,0.00722549,15
2789.4,0.00648572,15
2787.07,0.00655112,15
2784.74,0.00604848,15
2782.42,0.00649949,15
2780.09,0.00685605,15
2777.78,0.00782992,15
2775.46,0.00748699,15
2773.16,0.00638568,15
2770.85,0.00583909,15
2768.55,0.00469304,15
2766.25,0.00611178,15
2763.96,0.00529312,15
2761.67,0.00476878,15
2759.38,0.00550833,15
2757.1,0.00506867,15
2754.82,0.00364223,15
2752.55,0.00506901,15
2750.28,0.00589058,15
2748.01,0.00652461,15
2745.74,0.00634117,15
2743.48,0.00549303,15
2741.23,0.00351418,15
2738.98,0.000630504,15
2736.73,0.00352084,15
2734.48,0.00404288,15
2732.24,0.00495519,15
2730,0.00551322,15
2727.77,0.00494666,15
2725.54,0.00398803,15
2723.31,0.0022647,15
2721.09,0.00286003,15
2718.87,0.00253684,15
2716.65,0.00496125,15
2714.44,0.00489402,15
2712.23,0.00474207,15
2710.03,0.00392534,15
2707.83,0.00491454,15
2705.63,0.00514773,15
2703.43,0.00504198,15
2701.24,0.00522549,15
2699.06,0.00475467,15
2696.87,0.00449384,15
2694.69,0.00404436,15
2692.51,0.00362932,15
2690.34,0.00416259,15
2688.17,0.00485746,15
2686.01,0.00488979,15
2683.84,0.00415497,15
2681.68,0.00409573,15
2679.53,0.00349575,15
2677.38,0.00220541,15
2675.23,0.00201662,15
2673.08,0.00432381,15
2670.94,0.00625222,15
2668.8,0.0052262,15
2666.67,0.00402641,15
2664.54,0.00441822,15
2662.41,0.00417274,15
2660.28,0.00450195,15
2658.16,0.00451309,15
2656.04,0.00459048,15
2653.93,0.00424611,15
2651.82,0.00493302,15
2649.71,0.00471946,15
2647.6,0.00499092,15
2645.5,0.00600728,15
2643.4,0.00519131,15
2641.31,0.00628896,15
2639.22,0.00538524,15
2637.13,0.00524973,15
2635.05,0.00477519,15
2632.96,0.00536724,15
2630.89,0.00458524,15
2628.81,0.00397458,15
2626.74,0.00341623,15
2624.67,0.00393793,15
2622.61,0.00505905,15
2620.55,0.00483939,15
2618.49,0.00377008,15
2616.43,0.00341596,15
2614.38,0.00405524,15
2612.33,0.00551548,15
2610.28,0.00413845,15
2608.24,0.00354046,15
2606.2,0.00342664,15
2604.17,0.00383038,15
2602.13,0.00424988,15
2600.1,0.00483439,15
2598.08,0.00494268,15
2596.05,0.00581138,15
2594.03,0.00668243,15
2592.02,0.00588435,15
2590,0.00403921,15
2587.99,0.00411001,15
2585.98,0.00361102,15
2583.98,0.00330301,15
2581.98,0.0039899,15
2579.98,0.00512616,15
2577.98,0.00458223,15
2575.99,0.0059583,15
2574,0.00427655,15
2572.02,0.00414649,15
2570.03,0.00408288,15
2568.05,0.00478669,15
2566.08,0.00483113,15
2564.1,0.00466209,15
2562.13,0.00304713,15
2560.16,0.00467857,15
2558.2,0.00517696,15
2556.24,0.00553058,15
2554.28,0.00538137,15
2552.32,0.00573303,15
2550.37,0.00482182,15
2548.42,0.00550633,15
2546.47,0.0056993,15
2544.53,0.00580399,15
2542.59,0.00585027,15
2540.65,0.00543177,15
2538.72,0.00558341,15
2536.78,0.00562173,15
2534.85,0.00546275,15
2532.93,0.00538472,15
2531,0.00584908,15
2529.08,0.00583429,15
2527.17,0.00584059,15
2525.25,0.00570815,15
2523.34,0.00590873,15
2521.43,0.00572565,15
2519.53,0.00573484,15
2517.62,0.00579069,15
2515.72,0.00587372,15
2513.83,0.00571444,15
2511.93,0.00579677,15
2510.04,0.00587949,15
2508.15,0.00573823,15
2506.27,0.00577926,15
2504.38,0.00581446,15
2502.5,0.00594124,15
2500.63,0.00590551,15
2500.0,0.00588772,15