File: samples/SUN AND MOON/MOON/moon_manifest-composite.csv
wavelength_nm,intensity,source_count
345.386,-274.897,12
346.044,-270.939,12
346.701,-40.7116,12
347.358,24.27197,12
348.015,105.09,12
348.672,-25.8754,12
349.329,153.788,12
349.986,210.162,12
350.643,26.4432,12
351.299,104.095,12
351.956,90.7071,12
352.612,-23.4726,12
353.268,72.5743,12
353.924,68.1787,12
354.58,116.982,12
355.236,15.0865,12
355.891,259.102,12
356.547,93.059,12
357.202,46.3313,12
357.857,132.233,12
358.512,112.859,12
359.167,199.278,12
359.822,141.215,12
360.477,34.442,12
361.131,236.444,12
361.786,172.157,12
362.44,178.413,12
363.094,111.952,12
363.749,138.302,12
364.402,155.417,12
365.056,102.016,12
365.71,13.8509,12
366.364,209.677,12
367.017,160.431,12
367.67,91.1428,12
368.323,844.622,12
368.977,289.954,12
369.629,150.919,12
370.282,120.855,12
370.935,170.955,12
371.588,230.48,12
372.24,156.98,12
372.892,133.333,12
373.544,98.5654,12
374.196,235.969,12
374.848,290.917,12
375.5,84.6123,12
376.152,268.901,12
376.803,363.856,12
377.455,194.669,12
378.106,101.693,12
378.757,217.149,12
379.408,199.278,12
380.059,144.713,12
380.71,191.339,12
381.36,233.354,12
382.011,263.208,12
382.661,206.761,12
383.311,213.334,12
383.962,180.66,12
384.612,227.265,12
385.261,256.178,12
385.911,163.479,12
386.561,98.5332,12
387.21,444.44,12
387.86,261.034,12
388.509,207.743,12
389.158,148.792,12
389.807,228.935,12
390.456,206.094,12
391.104,427.437,12
391.753,228.383,12
392.401,275.714,12
393.05,278.339,12
393.698,251.938,12
394.346,374.203,12
394.994,380.006,12
395.642,293.496,12
396.289,283.807,12
396.937,313.132,12
397.584,311.78,12
398.232,500.556,12
398.879,243.769,12
399.526,380.435,12
400.173,332.365,12
400.82,352.767,12
401.466,240.51,12
402.113,347.997,12
402.759,398.571,12
403.405,482.911,12
404.051,392.449,12
404.697,529.153,12
405.343,537.341,12
405.989,508.508,12
406.635,518.425,12
407.28,426.168,12
407.926,531.182,12
408.571,596.862,12
409.216,591.224,12
409.861,616.664,12
410.506,588.061,12
411.15,576.475,12
411.795,613.505,12
412.439,589.393,12
413.084,624.811,12
413.728,612.446,12
414.372,598.467,12
415.016,628.508,12
415.66,662.878,12
416.304,695.243,12
416.947,620.867,12
417.59,726.149,12
418.234,698.794,12
418.877,777.573,12
419.52,718.755,12
420.163,694.212,12
420.806,800.215,12
421.448,833.513,12
422.091,702.506,12
422.733,760.775,12
423.376,794.223,12
424.018,831.226,12
424.66,848.984,12
425.302,1428.63,12
425.943,857.458,12
426.585,910.168,12
427.226,858.827,12
427.868,1037.18,12
428.509,813.007,12
429.15,878.63,12
429.791,843.887,12
430.432,803.824,12
431.073,843.211,12
431.713,938.396,12
432.354,798.153,12
432.994,871.946,12
433.634,950.025,12
434.274,885.578,12
434.914,949.61,12
435.554,821.082,12
436.194,917.157,12
436.833,979.522,12
437.473,1079.98,12
438.112,1045.22,12
438.751,1018.31,12
439.39,1028.75,12
440.029,1008.33,12
440.668,1118.39,12
441.306,1138.13,12
441.945,1216.25,12
442.583,1177.91,12
443.222,1214.76,12
443.86,1389.35,12
444.498,1400.05,12
445.136,1268.21,12
445.773,1277.33,12
446.411,1328.34,12
447.048,1344.98,12
447.686,1434.66,12
448.323,3823.9,12
448.96,1443.84,12
449.597,1501.35,12
450.234,1528.67,12
450.87,1388.67,12
451.507,1525.09,12
452.143,1564.52,12
452.78,1693.23,12
453.416,1524.25,12
454.052,1583.9,12
454.688,1726.07,12
455.324,1521.98,12
455.959,1647.17,12
456.595,1716.58,12
457.23,1636.98,12
457.865,1607.95,12
458.501,1612.17,12
459.136,1699.98,12
459.77,1724.78,12
460.405,1603.18,12
461.04,1706.26,12
461.674,1936.89,12
462.309,1874.54,12
462.943,1850.31,12
463.577,1893.95,12
464.211,1891.82,12
464.845,2032.46,12
465.478,1829.42,12
466.112,1952.99,12
466.745,2290.84,12
467.379,2135.02,12
468.012,2090.5,12
468.645,2162.89,12
469.278,2232.41,12
469.911,2153.7,12
470.543,2142.27,12
471.176,2251.63,12
471.808,2329.09,12
472.441,2372.46,12
473.073,2478.3,12
473.705,2406.02,12
474.337,2551.84,12
474.968,2703.98,12
475.6,2716.42,12
476.231,2720.44,12
476.863,2725.06,12
477.494,2859.55,12
478.125,2837.23,12
478.756,2968.84,12
479.387,3219.18,12
480.018,3160.4,12
480.648,3217.93,12
481.279,3423.22,12
481.909,3361,12
482.539,3662.14,12
483.169,3684.45,12
483.799,3631.94,12
484.429,3853.41,12
485.059,3919.88,12
485.688,3894.86,12
486.317,4150,12
486.947,4106.97,12
487.576,4089.38,12
488.205,4123.81,12
488.834,4146.32,12
489.462,4267.68,12
490.091,4389.49,12
490.72,4430.51,12
491.348,4492.58,12
491.976,4567.31,12
492.604,4642.61,12
493.232,4563.25,12
493.86,4602.59,12
494.488,4807.83,12
495.115,4840.01,12
495.743,4885.95,12
496.37,4968.71,12
496.997,5174.21,12
497.624,5157.54,12
498.251,5387.49,12
498.878,5317.11,12
499.504,5454.43,12
500.131,5482.23,12
500.757,5376.33,12
501.384,5570,12
502.01,5574.26,12
502.636,5564.74,12
503.262,5509.14,12
503.887,5549.14,12
504.513,5621.82,12
505.138,5684.51,12
505.764,5619.28,12
506.389,5601.49,12
507.014,5706.21,12
507.639,5649.44,12
508.264,5799.4,12
508.888,5782.87,12
509.513,5807.38,12
510.137,5790.18,12
510.762,5826.65,12
511.386,5983.05,12
512.01,5873.13,12
512.634,6102.55,12
513.257,5896.67,12
513.881,5982.59,12
514.504,5987.48,12
515.128,6088.1,12
515.751,6058.4,12
516.374,6099.2,12
516.997,6126.06,12
517.62,6181.23,12
518.243,6089.69,12
518.865,6062.68,12
519.488,6065.64,12
520.11,6028.33,12
520.732,5974.32,12
521.354,6001.29,12
521.976,5959.03,12
522.598,6060.55,12
523.219,6053.23,12
523.841,6070.56,12
524.462,6140.65,12
525.084,6113.28,12
525.705,6159.11,12
526.326,6149.29,12
526.947,6220.23,12
527.567,6258.41,12
528.188,6226.36,12
528.808,6265.67,12
529.429,6298.5,12
530.049,6350.36,12
530.669,6312.32,12
531.289,6374.53,12
531.909,6359.82,12
532.528,6444.51,12
533.148,6324.91,12
533.767,6395.19,12
534.387,6382.99,12
535.006,6360.03,12
535.625,6361.7,12
536.244,6470.54,12
536.862,6453.49,12
537.481,6533.85,12
538.099,6458.67,12
538.718,6504.67,12
539.336,6485.24,12
539.954,6449.91,12
540.572,6503.1,12
541.19,6426.32,12
541.807,6462.65,12
542.425,6488.41,12
543.042,6451.52,12
543.66,6451.15,12
544.277,6437.56,12
544.894,6442.24,12
545.511,6452.77,12
546.128,6449.31,12
546.744,6440.76,12
547.361,6449.28,12
547.977,6408.58,12
548.593,6435.14,12
549.209,6446.36,12
549.825,6534.52,12
550.441,6485.21,12
551.057,6506.7,12
551.672,6462.3,12
552.288,6533.06,12
552.903,6512.89,12
553.518,6529.82,12
554.133,6535.63,12
554.748,6601.33,12
555.363,6552.31,12
555.978,6632.48,12
556.592,6574.79,12
557.206,6649.02,12
557.821,6597.68,12
558.435,6551.83,12
559.049,6603.27,12
559.663,6662.61,12
560.276,6573.45,12
560.89,6583.42,12
561.503,6588.82,12
562.117,6552.63,12
562.73,6582.41,12
563.343,6629.19,12
563.956,6569.87,12
564.569,6582.15,12
565.181,6601.83,12
565.794,6595.7,12
566.406,6623.55,12
567.018,6646.54,12
567.63,6532.02,12
568.242,6478.11,12
568.854,6567.71,12
569.466,6535.98,12
570.078,6526.36,12
570.689,6532.93,12
571.3,6529.78,12
571.912,6485.61,12
572.523,6463.7,12
573.133,6488.86,12
573.744,6469.49,12
574.355,6494.71,12
574.965,6434.52,12
575.576,6428.05,12
576.186,6419.89,12
576.796,6463.2,12
577.406,6440.84,12
578.016,6451.37,12
578.626,6477.22,12
579.235,6449.33,12
579.845,6361.47,12
580.454,6461.25,12
581.063,6374.43,12
581.672,6408.69,12
582.281,6304.16,12
582.89,6359.38,12
583.499,6412.53,12
584.107,6346.17,12
584.716,6348.93,12
585.324,6386.83,12
585.932,6449.04,12
586.54,6376.19,12
587.148,6367.15,12
587.755,6372.27,12
588.363,6429.69,12
588.971,6392.44,12
589.578,6367.04,12
590.185,6408.43,12
590.792,6270.67,12
591.399,6281.65,12
592.006,6132.99,12
592.612,6079.56,12
593.219,6047.66,12
593.825,6140.81,12
594.432,5976.9,12
595.038,5981.31,12
595.644,5987.28,12
596.249,5870.87,12
596.855,5813.03,12
597.461,5839.94,12
598.066,5871.95,12
598.671,5779.44,12
599.277,5880.54,12
599.882,5842.03,12
600.487,5830.49,12
601.091,5913.19,12
601.696,5823.49,12
602.301,5953.33,12
602.905,5958.55,12
603.509,5996.23,12
604.113,5978.57,12
604.717,5983.72,12
605.321,6023.76,12
605.925,5967.45,12
606.528,6077.4,12
607.132,6079.52,12
607.735,6141.05,12
608.338,6076.25,12
608.941,6100.72,12
609.544,6092.26,12
610.147,6125.79,12
610.75,6117.69,12
611.352,6131.64,12
611.954,6150.38,12
612.557,6135.44,12
613.159,6221.4,12
613.761,6158.16,12
614.362,6100.06,12
614.964,6058.9,12
615.566,6150.28,12
616.167,6032.56,12
616.768,6097.67,12
617.37,6038.09,12
617.971,6117.99,12
618.571,6103.14,12
619.172,6039.65,12
619.773,6108.84,12
620.373,6021.27,12
620.974,6007.12,12
621.574,6002.65,12
622.174,6049.21,12
622.774,5981.49,12
623.374,6079.9,12
623.973,6049.13,12
624.573,6069.91,12
625.172,6017.29,12
625.772,6048.67,12
626.371,6068.71,12
626.97,6018.4,12
627.569,6038.21,12
628.167,5966.52,12
628.766,5940.44,12
629.364,5953.3,12
629.963,5934.04,12
630.561,5890.99,12
631.159,5846.6,12
631.757,5822.65,12
632.355,5767.37,12
632.952,5762.95,12
633.55,5771,12
634.147,5735.75,12
634.744,5703.32,12
635.342,5756.31,12
635.939,5699.03,12
636.535,5649.8,12
637.132,5720.53,12
637.729,5715.01,12
638.325,5692.87,12
638.921,5787.06,12
639.518,5719.64,12
640.114,5667.99,12
640.71,5716.95,12
641.305,5720.67,12
641.901,5801.63,12
642.496,5764.43,12
643.092,5668.97,12
643.687,5698.74,12
644.282,5735.16,12
644.877,5712.09,12
645.472,5623.5,12
646.067,5707.83,12
646.661,5604.96,12
647.256,5536.78,12
647.85,5606.02,12
648.444,5477.56,12
649.038,5494.23,12
649.632,5390.78,12
650.226,5422.92,12
650.819,5352.89,12
651.413,5350.2,12
652.006,5211.04,12
652.599,5302.68,12
653.192,5198.11,12
653.785,5235.13,12
654.378,5234.42,12
654.971,5272.66,12
655.563,5244.4,12
656.156,5123.39,12
656.748,5266.16,12
657.34,5033.08,12
657.932,5075.43,12
658.524,5038.09,12
659.115,4833.34,12
659.707,4920,12
660.298,4815.68,12
660.89,4897.42,12
661.481,4874.71,12
662.072,4924.66,12
662.663,4933.73,12
663.254,4927.7,12
663.844,4886.08,12
664.435,4885.68,12
665.025,4947.87,12
665.615,5004.1,12
666.205,4978,12
666.795,4968.64,12
667.385,4995.24,12
667.975,5095.09,12
668.564,5160.01,12
669.154,5051.67,12
669.743,5094.62,12
670.332,5112.83,12
670.921,5128.71,12
671.51,5027.88,12
672.099,5082.3,12
672.687,5064.22,12
673.276,5032.61,12
673.864,5020.39,12
674.452,5106.32,12
675.04,5015.73,12
675.628,4987.79,12
676.216,4980.39,12
676.804,4967.88,12
677.391,4942.87,12
677.978,4873.84,12
678.566,4895.89,12
679.153,4941.34,12
679.74,4980.31,12
680.327,4842.2,12
680.913,4815.38,12
681.5,4829.02,12
682.086,4836.3,12
682.672,4753.56,12
683.259,5093.98,12
683.845,4718.29,12
684.43,4791.12,12
685.016,4746.73,12
685.602,4917.75,12
686.187,4703.13,12
686.773,4689.11,12
687.358,4692.01,12
687.943,4743.48,12
688.528,4703.48,12
689.112,4528.99,12
689.697,4405.58,12
690.282,4329.87,12
690.866,4267.03,12
691.45,4292.38,12
692.034,4142.06,12
692.618,4044.84,12
693.202,4056.82,12
693.786,4058.67,12
694.369,3977.98,12
694.953,3967.75,12
695.536,3921.88,12
696.119,3909.64,12
696.702,3738.94,12
697.285,3705.08,12
697.868,3722.37,12
698.45,3729.04,12
699.033,3699.1,12
699.615,3729,12
700.197,3753.68,12
700.779,3832.34,12
701.361,3749.71,12
701.943,3705.77,12
702.525,3815.81,12
703.106,3882.47,12
703.687,3612.92,12
704.269,3661.22,12
704.85,3688.63,12
705.431,3675.48,12
706.012,3737.26,12
706.592,3701.87,12
707.173,3612.76,12
707.753,3622.34,12
708.333,3593.55,12
708.914,3600.54,12
709.494,3641.04,12
710.073,3680.85,12
710.653,3654.94,12
711.233,3616.63,12
711.812,3731.45,12
712.391,3697.52,12
712.971,3665.12,12
713.55,3603.13,12
714.129,3710.49,12
714.707,3678.8,12
715.286,3631.81,12
715.864,3611.96,12
716.443,3738.28,12
717.021,3691.3,12
717.599,3548.24,12
718.177,3774.29,12
718.755,3583.54,12
719.333,3520.14,12
719.91,3391.1,12
720.487,3167.29,12
721.065,3064.4,12
721.642,2980.58,12
722.219,2850.98,12
722.796,2756.86,12
723.372,2688.01,12
723.949,2736.81,12
724.525,2590.74,12
725.102,2555.75,12
725.678,2442.99,12
726.254,2408.65,12
726.83,2335.33,12
727.405,2349.57,12
727.981,2280.48,12
728.556,2296.68,12
729.132,2190.35,12
729.707,2171.52,12
730.282,2282.08,12
730.857,2328.17,12
731.432,2258.69,12
732.006,2237.41,12
732.581,2228.57,12
733.155,2210.4,12
733.729,2176.87,12
734.304,2177.8,12
734.877,2294.96,12
735.451,2325.72,12
736.025,2276.17,12
736.599,2390.15,12
737.172,2418.1,12
737.745,2413.31,12
738.318,2367.07,12
738.891,2447.22,12
739.464,2513.52,12
740.037,2552.42,12
740.609,2636.91,12
741.182,2566.33,12
741.754,2587.17,12
742.326,2673.98,12
742.898,2697.09,12
743.47,2786.42,12
744.042,2718.39,12
744.614,2770.69,12
745.185,2736.75,12
745.756,2771.68,12
746.328,2759.06,12
746.899,2712.49,12
747.47,2716.79,12
748.04,2799.89,12
748.611,2760.66,12
749.182,2881.35,12
749.752,2696.35,12
750.322,2770.12,12
750.892,2790.35,12
751.462,2800.78,12
752.032,2677.98,12
752.602,2776.37,12
753.171,2719.09,12
753.741,2700.5,12
754.31,2734.29,12
754.879,2681.12,12
755.448,2644.22,12
756.017,2728.83,12
756.586,2610.93,12
757.154,2749.83,12
757.723,2731.13,12
758.291,2678.23,12
758.859,2597.89,12
759.427,2599.23,12
759.995,2634.91,12
760.563,2557.61,12
761.13,2511.83,12
761.698,2377.96,12
762.265,2359.85,12
762.832,2164.75,12
763.399,2100.89,12
763.966,2042.51,12
764.533,1905.4,12
765.1,1809.04,12
765.666,1639.05,12
766.232,1549.05,12
766.799,1458.82,12
767.365,1453.25,12
767.931,1368.42,12
768.497,1358.57,12
769.062,1281.26,12
769.628,1369.47,12
770.193,1330.98,12
770.758,1429.06,12
771.323,1483.08,12
771.888,1660.12,12
772.453,1583.46,12
773.018,1875.12,12
773.583,1784.38,12
774.147,1857.98,12
774.711,1945.79,12
775.275,1987.18,12
775.839,1973.51,12
776.403,1985.08,12
776.967,2064.01,12
777.531,2105.34,12
778.094,2160.03,12
778.657,2230.35,12
779.22,2176.95,12
779.783,2136.62,12
780.346,2128.13,12
780.909,2192.3,12
781.472,2080.33,12
782.034,2128.6,12
782.597,2093.85,12
783.159,2098.72,12
783.721,2117.98,12
784.283,2000.73,12
784.844,2089.19,12
785.406,2052.43,12
785.968,2018.04,12
786.529,2091.27,12
787.09,1959.09,12
787.651,2088.79,12
788.212,1939.77,12
788.773,1929.52,12
789.334,1854.29,12
789.894,1875.62,12
790.455,1914.41,12
791.015,1922.43,12
791.575,1889.4,12
792.135,1905.73,12
792.695,1729.27,12
793.254,1683.98,12
793.814,1737.97,12
794.373,1844.66,12
794.933,1710.09,12
795.492,1661.99,12
796.051,1704.07,12
796.61,1685.46,12
797.168,1705.65,12
797.727,1750.84,12
798.285,1614.98,12
798.844,1726.05,12
799.402,1666.01,12
799.96,1725.5,12
800.518,1663.96,12
801.075,1637.64,12
801.633,1577.46,12
802.19,1661.73,12
802.748,1790.21,12
803.305,1589.29,12
803.862,1585.61,12
804.419,1597.42,12
804.976,1642.26,12
805.532,1559.16,12
806.089,1644.49,12
806.645,1599.16,12
807.201,1708.67,12
807.757,1555.65,12
808.313,1614.03,12
808.869,1555.01,12
809.425,1564.61,12
809.98,1551.23,12
810.536,1535.72,12
811.091,1657.91,12
811.646,1579.56,12
812.201,1532.67,12
812.756,1459.64,12
813.31,1456.59,12
813.865,1515.35,12
814.419,1495.86,12
814.973,1487.93,12
815.528,1436.34,12
816.081,1375.12,12
816.635,1368.02,12
817.189,1331.34,12
817.743,1166.87,12
818.296,1272.96,12
818.849,1278.62,12
819.402,1105.44,12
819.955,1117.3,12
820.508,1090.26,12
821.061,1096.07,12
821.613,1087.43,12
822.166,935.317,12
822.718,979.217,12
823.27,984.753,12
823.822,912.874,12
824.374,921.98,12
824.926,957.763,12
825.477,872.213,12
826.029,811.931,12
826.58,872.938,12
827.131,940.25,12
827.682,962.31,12
828.233,858.085,12
828.784,895.375,12
829.335,954.891,12
829.885,955.137,12
830.435,846.882,12
830.985,953.192,12
831.535,882.759,12
832.085,907.965,12
832.635,839.322,12
833.185,1050.29,12
833.734,923.349,12
834.284,882.478,12
834.833,811.034,12
835.382,864.66,12
835.931,868.197,12
836.479,924.193,12
837.028,804.313,12
837.577,899.736,12
838.125,933.473,12
838.673,3066.14,12
839.221,846.518,12
839.769,855.945,12
840.317,892.48,12
840.865,934.949,12
841.412,953.726,12
841.959,827.381,12
842.507,1125.51,12
843.054,1096.22,12
843.601,962.796,12
844.147,924.38,12
844.694,951.18,12
845.241,1082.5,12
845.787,973.82,12
846.333,889.445,12
846.879,1035.75,12
847.425,932.643,12
847.971,875.41,12
848.517,927.763,12
849.062,980.35,12
849.608,894.01,12
850.153,919.633,12
850.698,873.742,12
851.243,1038.71,12
851.788,951.929,12
852.333,902.216,12
852.877,913.478,12
853.422,1063.37,12
853.966,918.764,12
854.51,938.858,12
855.054,914.537,12
855.598,893.992,12
856.141,868.698,12
856.685,837.373,12
857.228,776.432,12
857.772,1108.3,12
858.315,832.049,12
858.858,855.246,12
859.401,812.579,12
859.943,780.668,12
860.486,840.486,12
861.028,780.615,12
861.571,784.271,12
862.113,799.324,12
862.655,750.579,12
863.197,851.86,12
863.738,845.055,12
864.28,835.583,12
864.821,845.136,12
865.363,776.539,12
865.904,800.046,12
866.445,793.017,12
866.986,819.794,12
867.526,728.622,12
868.067,770.629,12
868.607,704.747,12
869.148,912.255,12
869.688,702.634,12
870.228,662.923,12
870.768,774.015,12
871.307,711.222,12
871.847,695.1418,12
872.387,707.466,12
872.926,771.268,12
873.465,753.352,12
874.004,589.546,12
874.543,625.166,12
875.082,600.777,12
875.62,661.625,12
876.159,701.079,12
876.697,690.277,12
877.235,714.277,12
877.773,626.087,12
878.311,622.403,12
878.849,707.211,12
879.387,658.365,12
879.924,821.842,12
880.461,608.161,12
880.998,553.105,12
881.536,696.838,12
882.072,652.616,12
882.609,515.304,12
883.146,564.446,12
883.682,556.541,12
884.219,586.739,12
884.755,580.932,12
885.291,564.64,12
885.827,575.687,12
886.363,569.067,12
886.898,772.871,12
887.434,531.841,12
887.969,619.688,12
888.504,622.47,12
889.039,614.208,12
889.574,547.625,12
890.109,504.224,12
890.643,551.482,12
891.178,594.111,12
891.712,478.735,12
892.247,529.646,12
892.781,518.276,12
893.314,464.197,12
893.848,711.817,12
894.382,572.44,12
894.915,501.091,12
895.449,577.39,12
895.982,677.997,12
896.515,469.753,12
897.048,531.918,12
897.581,529.306,12
898.113,493.907,12
898.646,582.095,12
899.178,528.141,12
899.71,402.061,12
900.242,366.643,12
900.774,483.788,12
901.306,395.295,12
901.838,340.618,12
902.369,281.953,12
902.901,444.156,12
903.432,381.216,12
903.963,271.715,12
904.494,231.817,12
905.024,284.784,12
905.555,333.141,12
906.086,385.36,12
906.616,267.475,12
907.146,301.703,12
907.676,345.135,12
908.206,333.317,12
908.736,356.951,12
909.266,323.477,12
909.795,295.228,12
910.324,206.303,12
910.854,217.214,12
911.383,340.287,12
911.912,382.417,12
912.44,437.725,12
912.969,260.405,12
913.498,255.101,12
914.026,355.701,12
914.554,241.208,12
915.082,226.34,12
915.61,307.265,12
916.138,240.112,12
916.665,224.2666,12
917.193,167.853,12
917.72,237.317,12
918.247,203.702,12
918.775,126.63,12
919.301,232.134,12
919.828,291.072,12
920.355,1921.1,12
920.881,167.082,12
921.408,216.845,12
921.934,195.235,12
922.46,216.14,12
922.986,134.334,12
923.512,176.402,12
924.037,256.417,12
924.563,199.162,12
925.088,205.933,12
925.613,320.343,12
926.138,228.258,12
926.663,346.161,12
927.188,105.372,12
927.713,177.751,12
928.237,286.074,12
928.761,297.171,12
929.286,244.969,12
929.81,124.861,12
930.334,115.467,12
930.857,211.378,12
931.381,170.787,12
931.904,153.131,12
932.428,133.097,12
932.951,133.072,12
933.474,126.073,12
933.997,154.324,12
934.52,40.0599,12
935.042,53.3829,12
935.565,54.598,12
936.087,201.607,12
936.609,90.0478,12
937.131,141.266,12
937.653,47.5897,12
938.175,0.962895,12
938.697,67.3282,12
939.218,96.7079,12
939.739,-46.7373,12
940.261,-33.5231,12
940.782,156.045,12
941.302,88.545,12
941.823,-8.42707,12
942.344,0.693649,12
942.864,16.8279,12
943.385,44.9198,12
943.905,15.4556,12
944.425,-6.06768,12
944.945,23.2501,12
945.464,20.9917,12
945.984,40.3692,12
946.503,-17.5111,12
947.023,55.8372,12
947.542,-11.1031,12
948.061,-39.0873,12
948.58,-20.2728,12
949.099,26.6426,12
949.617,24.3872,12
950.136,12.3125,12
950.654,106.27,12
951.172,79.6025,12
951.69,30.6435,12
952.208,-6.06676,12
952.726,88.4452,12
953.243,133.402,12
953.761,26.7897,12
954.278,12.9977,12
954.795,-75.5809,12
955.312,61.6947,12
955.829,46.8714,12
956.346,44.4178,12
956.862,-43.2549,12
957.379,134.136,12
957.895,2.65014,12
958.411,-62.8028,12
958.927,6.25229,12
959.443,-43.413,12
959.959,-38.2287,12
960.474,7.68346,12
960.99,45.7798,12
961.505,73.5236,12
962.02,17.3928,12
962.535,93.00021,12
963.05,143.583,12
963.564,68.2601,12
964.079,57.4824,12
964.593,28.3508,12
965.108,43.4275,12
965.622,13.8346,12
966.136,45.5656,12
966.65,-20.0882,12
967.163,8.87428,12
967.677,50.0261,12
968.19,6.57903,12
968.703,41.6195,12
969.216,-52.0844,12
969.729,82.9036,12
970.242,21.5942,12
970.755,25.3371,12
971.267,84.3208,12
971.78,47.6947,12
972.292,125.67,12
972.804,85.2144,12
973.316,31.1864,12
973.828,99.69952,12
974.339,48.9095,12
974.851,51.3952,12
975.362,33.1071,12
975.874,94.3445,12
976.385,177.133,12
976.896,39.5084,12
977.406,107.677,12
977.917,31.4845,12
978.427,176.703,12
978.938,-5.7257,12
979.448,34.2208,12
979.958,78.0838,12
980.468,13.8798,12
980.978,18.7168,12
981.487,-10.1175,12
981.997,10.3428,12
982.506,73.5909,12
983.015,127.318,12
983.524,102.86,12
984.033,6.57811,12
984.542,39.2692,12
985.051,71.7077,12
985.559,22.6244,12
986.067,30.4962,12
986.576,50.4198,12
987.084,45.1497,12
987.591,81.4998,12
988.099,116.717,12
988.607,45.6599,12
989.114,-14.6705,12
989.621,83.6005,12
990.129,91.7034,12
990.636,-13.4344,12
991.142,47.9477,12
991.649,15.1556,12
992.156,39.8928,12
992.662,1374.5,12
993.168,-2.83445,12
993.675,-7.0201,12
994.181,131.766,12
994.686,1.78042,12
995.192,52.2125,12
995.698,-35.3226,12
996.203,89.0536,12
996.708,203.437,12
997.213,-16.9279,12
997.718,122.075,12
998.223,-11.0072,12
998.728,235.303,12
999.232,129.881,12
999.737,-18.4054,12
1000.241,150.426,12
1000.745,84.9372,12
1001.249,28.3083,12
1001.753,84.78821,12
1002.256,66.3368,12
1002.76,59.7506,12
1003.263,-25.2971,12
1003.767,30.7136,12
1004.27,36.4468,12
1004.773,86.2202,12
1005.275,-33.3555,12
1005.778,-9.94348,12
1006.28,-12.3875,12
1006.783,84.1627,12
1007.285,-92.0431,12
1007.787,54.1202,12
1008.289,50.7403,12
1008.791,74.70295,12
1009.292,-44.0365,12
1009.794,-15.774,12
1010.295,74.5394,12
1010.796,79.4333,12
1011.297,107.874,12
1011.798,53.9937,12
1012.299,93.4929,12
1012.799,50.2069,12
1013.3,-55.6115,12
1013.8,19.495,12
1014.3,42.975,12
1014.8,119.445,12
1015.3,-11.9249,12
1015.8,-9.3332,12
1016.3,130.96,12
1016.799,38.0201,12
1017.298,-26.3204,12
1017.797,-15.7804,12
1018.296,103.878,12
1018.795,61.4509,12
1019.294,44.1231,12
1019.792,-21.9424,12
1020.291,29.2475,12
1020.789,-8.54035,12
1021.287,111.67,12
1021.785,59.2043,12
1022.283,24.554,12
1022.781,245.799,12
1023.278,49.5586,12
1023.775,-60.079,12
1024.273,-63.2727,12
1024.77,1342.29,12
1025.267,113.21,12
1025.763,34.3033,12
1026.26,109.616,12
1026.757,134.862,12
1027.253,-33.89289,12
1027.749,-106.425,12
1028.245,-13.4449,12
1028.741,120.544,12
1029.237,-71.306,12
1029.732,12.51515,12
1030.228,-49.9129,12
1030.723,78.2178,12
1031.218,-50.435,12
1031.713,-107.683,12
1032.208,112.071,12
1032.703,63.4315,12
1033.198,-122.964,12
1033.692,-0.453253,12
1034.186,142.824,12
1034.68,38.6317,12
1035.174,-12.6976,12
1035.668,133.739,12
1036.162,93.4084,12
1036.655,85.8652,12
1037.149,66.73779,12
1037.642,51.5774,12
1038.135,36.3328,12
1038.628,10.7037,12
1039.121,-7.58284,12
1039.614,-21.9087,12
1040.106,37.5237,12
1040.599,-23.7822,12
1041.091,31.1092,12
1041.583,-5.3841,12
1042.075,44.2673,12
1042.567,143.437,12
1043.058,-18.481,12
1043.55,21.2543,12
1044.041,50.5449,12
1044.532,-46.6388,12
1045.023,45.2021,12
1045.514,-99.1101,12
1045.841,93.53095,12