File: downloads/files/09/cleaner moon 2 files-composite.csv
wavelength_nm,intensity,source_count
345.386,0.846195,2
346.044,-13.3102,2
346.701,-3.11093,2
347.358,18.32537,2
348.015,4.22805,2
348.672,30.188,2
349.329,-5.918915,2
349.986,60.5961,2
350.643,0.277785,2
351.299,69.07966,2
351.956,54.9889,2
352.612,7.613535,2
353.268,1.97383,2
353.924,52.2339,2
354.58,10.9959,2
355.236,49.37699,2
355.891,-2.53693,2
356.547,44.8448,2
357.202,23.9768,2
357.857,9.853915,2
358.512,-39.7758,2
359.167,16.6273,2
359.822,57.7906,2
360.477,-9.30367,2
361.131,22.2558,2
361.786,45.9518,2
362.44,38.031,2
363.094,30.7051,2
363.749,44.829,2
364.402,15.4911,2
365.056,43.177,2
365.71,26.2311,2
366.364,61.1573,2
367.017,48.7696,2
367.67,58.8291,2
368.323,47.44531,2
368.977,39.75246,2
369.629,23.9651,2
370.282,38.5991,2
370.935,38.62011,2
371.588,23.9456,2
372.24,54.9388,2
372.892,60.5854,2
373.544,48.7895,2
374.196,86.6141,2
374.848,19.44378,2
375.5,48.8741,2
376.152,38.61414,2
376.803,34.069,2
377.455,32.9949,2
378.106,11.0033,2
378.757,41.908,2
379.408,5.35555,2
380.059,71.39229,2
380.71,87.1138,2
381.36,19.45751,2
382.011,81.4316,2
382.661,67.96124,2
383.311,110.736,2
383.962,66.8266,2
384.612,42.0074,2
385.261,44.1871,2
385.911,38.0555,2
386.561,42.0508,2
387.21,52.0527,2
387.86,34.6609,2
388.509,54.9355,2
389.158,48.2311,2
389.807,62.85324,2
390.456,80.984,2
391.104,85.3492,2
391.753,70.745,2
392.401,88.7784,2
393.05,97.21015,2
393.698,60.6015,2
394.346,77.94497,2
394.994,76.8696,2
395.642,91.0863,2
396.289,82.4697,2
396.937,66.1693,2
397.584,79.8226,2
398.232,73.97165,2
398.879,48.2116,2
399.526,79.14171,2
400.173,74.7176,2
400.82,79.7409,2
401.466,69.6997,2
402.113,104.483,2
402.759,116.318,2
403.405,137.706,2
404.051,120.883,2
404.697,153.872,2
405.343,79.07686,2
405.989,158.542,2
406.635,138.168,2
407.28,163.166,2
407.926,162.443,2
408.571,125.709,2
409.216,163.024,2
409.861,128.562,2
410.506,146.711,2
411.15,148.857,2
411.795,172.54,2
412.439,145.9861,2
413.084,159.747,2
413.728,135.909,2
414.372,167.883,2
415.016,169.445,2
415.66,113.9791,2
416.304,173.138,2
416.947,189.884,2
417.59,148.212,2
418.234,168.449,2
418.877,254.511,2
419.52,188.067,2
420.163,230.399,2
420.806,199.337,2
421.448,175.6,2
422.091,146.949,2
422.733,221.932,2
423.376,216.865,2
424.018,220.291,2
424.66,239.187,2
425.302,197.972,2
425.943,196.998,2
426.585,190.919,2
427.226,226.831,2
427.868,204.809,2
428.509,226.208,2
429.15,227.378,2
429.791,205.491,2
430.432,231.242,2
431.073,234.79,2
431.713,204.054,2
432.354,208.312,2
432.994,230.073,2
433.634,209.149,2
434.274,255.892,2
434.914,193.298,2
435.554,230.696,2
436.194,281.366,2
436.833,321.5253,2
437.473,249.608,2
438.112,227.765,2
438.751,283.784,2
439.39,224.725,2
440.029,287.198,2
440.668,256.576,2
441.306,310.151,2
441.945,358.053,2
442.583,299.433,2
443.222,287.483,2
443.86,326.699,2
444.498,384.9241,2
445.136,357.107,2
445.773,398.978,2
446.411,353.896,2
447.048,356.62,2
447.686,404.255,2
448.323,399.017,2
448.96,432.295,2
449.597,380.825,2
450.234,424,2
450.87,377.959,2
451.507,379.406,2
452.143,420.54,2
452.78,381.832,2
453.416,364.01,2
454.052,399.619,2
454.688,471.615,2
455.324,428.743,2
455.959,437.009,2
456.595,453.916,2
457.23,467.371,2
457.865,464.025,2
458.501,452.684,2
459.136,455.089,2
459.77,473.63,2
460.405,485.243,2
461.04,508.788,2
461.674,554.108,2
462.309,538.111,2
462.943,528.671,2
463.577,515.559,2
464.211,517.266,2
464.845,560.805,2
465.478,536.127,2
466.112,561.131,2
466.745,552.466,2
467.379,555.236,2
468.012,619.011,2
468.645,655.8051,2
469.278,628.633,2
469.911,610.326,2
470.543,604.882,2
471.176,608.9739,2
471.808,649.742,2
472.441,650.502,2
473.073,668.516,2
473.705,654.044,2
474.337,693.8493,2
474.968,752.735,2
475.6,744.857,2
476.231,800.814,2
476.863,761.267,2
477.494,787.3274,2
478.125,803.44,2
478.756,888.404,2
479.387,868.401,2
480.018,909.921,2
480.648,948.979,2
481.279,959.427,2
481.909,947.717,2
482.539,984.07,2
483.169,1044.64,2
483.799,1036.82,2
484.429,1116.33,2
485.059,1128.13,2
485.688,1053.19,2
486.317,1134.48,2
486.947,1169.16,2
487.576,1138.6,2
488.205,1139.74,2
488.834,1209.03,2
489.462,1136.21,2
490.091,1160.41,2
490.72,1228.01,2
491.348,1179.29,2
491.976,1246.04,2
492.604,1286.06,2
493.232,1241.06,2
493.86,1251.41,2
494.488,1352.48,2
495.115,1324.7,2
495.743,1356.8,2
496.37,1380,2
496.997,1418.55,2
497.624,1417.08,2
498.251,1502.36,2
498.878,1455.43,2
499.504,1499.22,2
500.131,1523.69,2
500.757,1433.17,2
501.384,1456.81,2
502.01,1454.38,2
502.636,1508.24,2
503.262,1517.38,2
503.887,1482.66,2
504.513,1491.89,2
505.138,1538.4,2
505.764,1472.06,2
506.389,1513.37,2
507.014,1557.5,2
507.639,1435.48,2
508.264,1484.7,2
508.888,1594.68,2
509.513,1585.97,2
510.137,1540.07,2
510.762,1575.82,2
511.386,1620.48,2
512.01,1533.38,2
512.634,1668.47,2
513.257,1624.75,2
513.881,1632.67,2
514.504,1590.1,2
515.128,1611.56,2
515.751,1608.78,2
516.374,1631.57,2
516.997,1650.4,2
517.62,1638,2
518.243,1639.57,2
518.865,1632.48,2
519.488,1607.86,2
520.11,1567.14,2
520.732,1616.79,2
521.354,1630.29,2
521.976,1579.95,2
522.598,1582.46,2
523.219,1557.66,2
523.841,1599.55,2
524.462,1597.54,2
525.084,1627.44,2
525.705,1605.35,2
526.326,1627.61,2
526.947,1630.45,2
527.567,1635.09,2
528.188,1685.96,2
528.808,1736.03,2
529.429,1662.39,2
530.049,1645.36,2
530.669,1751.15,2
531.289,1640.7,2
531.909,1679.94,2
532.528,1762.53,2
533.148,1703.77,2
533.767,1671.92,2
534.387,1691.17,2
535.006,1771.44,2
535.625,1745.18,2
536.244,1721.95,2
536.862,1739.6,2
537.481,1738.95,2
538.099,1763.01,2
538.718,1732.58,2
539.336,1683.5,2
539.954,1796.55,2
540.572,1767.65,2
541.19,1764.77,2
541.807,1745.96,2
542.425,1754.7,2
543.042,1740.09,2
543.66,1808.18,2
544.277,1730.51,2
544.894,1824.38,2
545.511,1760.99,2
546.128,1696.66,2
546.744,1740.94,2
547.361,1739.81,2
547.977,1763.66,2
548.593,1748.1,2
549.209,1773.7,2
549.825,1754.95,2
550.441,1772.25,2
551.057,1811.82,2
551.672,1807.81,2
552.288,1802.36,2
552.903,1776.93,2
553.518,1792.75,2
554.133,1811.24,2
554.748,1824.18,2
555.363,1819.11,2
555.978,1849.5,2
556.592,1818.71,2
557.206,1821.85,2
557.821,1813.23,2
558.435,1764.55,2
559.049,1818.22,2
559.663,1855.71,2
560.276,1761.34,2
560.89,1835.77,2
561.503,1766.37,2
562.117,1781.25,2
562.73,1806.02,2
563.343,1774.61,2
563.956,1843.47,2
564.569,1797.06,2
565.181,1804.7,2
565.794,1790.32,2
566.406,1860.6,2
567.018,1801.31,2
567.63,1748.71,2
568.242,1761.06,2
568.854,1791.46,2
569.466,1779.41,2
570.078,1726.28,2
570.689,1824.63,2
571.3,1739.81,2
571.912,1702.26,2
572.523,1787.27,2
573.133,1794.04,2
573.744,1746.35,2
574.355,1743.79,2
574.965,1765.92,2
575.576,1724.44,2
576.186,1775.11,2
576.796,1683.44,2
577.406,1689.71,2
578.016,1715.97,2
578.626,1699.5,2
579.235,1761.05,2
579.845,1666.47,2
580.454,1714.51,2
581.063,1721.27,2
581.672,1746.52,2
582.281,1707.54,2
582.89,1711.33,2
583.499,1792.59,2
584.107,1690.03,2
584.716,1720.77,2
585.324,1705.44,2
585.932,1685.54,2
586.54,1714.64,2
587.148,1725.51,2
587.755,1684.64,2
588.363,1771.45,2
588.971,1711.5,2
589.578,1693.09,2
590.185,1695.63,2
590.792,1708.46,2
591.399,1622.86,2
592.006,1582.73,2
592.612,1612.03,2
593.219,1601.89,2
593.825,1541.69,2
594.432,1586.56,2
595.038,1532.44,2
595.644,1494.06,2
596.249,1564.09,2
596.855,1514.14,2
597.461,1508.99,2
598.066,1471.61,2
598.671,1486.73,2
599.277,1481.43,2
599.882,1529.58,2
600.487,1486.65,2
601.091,1571.64,2
601.696,1477.62,2
602.301,1574.7,2
602.905,1571.71,2
603.509,1596.13,2
604.113,1584.08,2
604.717,1615.56,2
605.321,1599.75,2
605.925,1593.94,2
606.528,1595.17,2
607.132,1621.75,2
607.735,1612.34,2
608.338,1675.17,2
608.941,1633.32,2
609.544,1577.39,2
610.147,1614.56,2
610.75,1648.17,2
611.352,1632.68,2
611.954,1722.63,2
612.557,1588.14,2
613.159,1575.07,2
613.761,1596.35,2
614.362,1609.83,2
614.964,1579.43,2
615.566,1595.03,2
616.167,1592.89,2
616.768,1623.34,2
617.37,1578.48,2
617.971,1585.46,2
618.571,1604.94,2
619.172,1544.96,2
619.773,1545.23,2
620.373,1571.95,2
620.974,1540.72,2
621.574,1561.45,2
622.174,1579.83,2
622.774,1557.57,2
623.374,1602.22,2
623.973,1570.83,2
624.573,1579.74,2
625.172,1520.52,2
625.772,1525.69,2
626.371,1499.94,2
626.97,1530.35,2
627.569,1539.64,2
628.167,1563.72,2
628.766,1473.44,2
629.364,1505.12,2
629.963,1501.07,2
630.561,1545.85,2
631.159,1559.86,2
631.757,1524.95,2
632.355,1510.36,2
632.952,1462.16,2
633.55,1437.36,2
634.147,1381.6,2
634.744,1418.56,2
635.342,1549.4,2
635.939,1426.37,2
636.535,1421.41,2
637.132,1480.96,2
637.729,1415.89,2
638.325,1417.69,2
638.921,1491.43,2
639.518,1433.83,2
640.114,1436.51,2
640.71,1476.73,2
641.305,1476.65,2
641.901,1509.71,2
642.496,1465.8,2
643.092,1457.41,2
643.687,1478.42,2
644.282,1437.74,2
644.877,1398.53,2
645.472,1433.65,2
646.067,1414.82,2
646.661,1432.39,2
647.256,1430.35,2
647.85,1406.95,2
648.444,1400.73,2
649.038,1392.77,2
649.632,1359.19,2
650.226,1361.17,2
650.819,1350.51,2
651.413,1306.99,2
652.006,1355.33,2
652.599,1242.89,2
653.192,1316.7,2
653.785,1281.48,2
654.378,1319.01,2
654.971,1325.99,2
655.563,1258.98,2
656.156,1311.71,2
656.748,1292.26,2
657.34,1229.34,2
657.932,1274.75,2
658.524,1267.48,2
659.115,1264.63,2
659.707,1246.27,2
660.298,1222.82,2
660.89,1211.28,2
661.481,1205.15,2
662.072,1193.53,2
662.663,1233.95,2
663.254,1223.95,2
663.844,1247.3,2
664.435,1246.77,2
665.025,1260.05,2
665.615,1203.96,2
666.205,1223.8,2
666.795,1227.83,2
667.385,1230.82,2
667.975,1265.42,2
668.564,1277.65,2
669.154,1284.69,2
669.743,1263.08,2
670.332,1260.02,2
670.921,1269.71,2
671.51,1218.89,2
672.099,1247.28,2
672.687,1237.97,2
673.276,1296.81,2
673.864,1201.09,2
674.452,1250.94,2
675.04,1279.36,2
675.628,1238.26,2
676.216,1252.77,2
676.804,1219.395,2
677.391,1226.08,2
677.978,1173.99,2
678.566,1165.18,2
679.153,1255.52,2
679.74,1209.42,2
680.327,1172.49,2
680.913,1192.45,2
681.5,1183.33,2
682.086,1174.72,2
682.672,1219.17,2
683.259,1164.37,2
683.845,1171.37,2
684.43,1177.03,2
685.016,1219.65,2
685.602,1192.25,2
686.187,1195.88,2
686.773,1106.41,2
687.358,1107.7,2
687.943,1136.41,2
688.528,1138.32,2
689.112,1133.45,2
689.697,1092.86,2
690.282,1081.66,2
690.866,1013.01,2
691.45,1079.76,2
692.034,1086.76,2
692.618,1040.18,2
693.202,1003.83,2
693.786,974.91,2
694.369,996.047,2
694.953,951.978,2
695.536,987.082,2
696.119,909.633,2
696.702,868.007,2
697.285,904.308,2
697.868,934.912,2
698.45,979.875,2
699.033,958.374,2
699.615,943.869,2
700.197,914.79,2
700.779,986.207,2
701.361,892.135,2
701.943,878.073,2
702.525,910.284,2
703.106,884.32,2
703.687,926.087,2
704.269,964.195,2
704.85,902.891,2
705.431,921.577,2
706.012,940.175,2
706.592,889.53,2
707.173,919.618,2
707.753,908.579,2
708.333,890.831,2
708.914,944.426,2
709.494,935.982,2
710.073,857.541,2
710.653,856.943,2
711.233,901.7547,2
711.812,903.654,2
712.391,872.477,2
712.971,879.398,2
713.55,948.528,2
714.129,853.278,2
714.707,910.281,2
715.286,884.274,2
715.864,909.582,2
716.443,891.173,2
717.021,847.077,2
717.599,832.361,2
718.177,843.995,2
718.755,893.197,2
719.333,862.407,2
719.91,781.84,2
720.487,821.39,2
721.065,737.972,2
721.642,713.31,2
722.219,712.336,2
722.796,692.745,2
723.372,654.546,2
723.949,620.281,2
724.525,667.737,2
725.102,613.425,2
725.678,588.907,2
726.254,588.615,2
726.83,539.719,2
727.405,601.596,2
727.981,529.646,2
728.556,579.257,2
729.132,540.81,2
729.707,513.953,2
730.282,550.498,2
730.857,590.305,2
731.432,589.028,2
732.006,552.736,2
732.581,561.674,2
733.155,563.128,2
733.729,544.372,2
734.304,536.508,2
734.877,559.72,2
735.451,526.911,2
736.025,550.3334,2
736.599,573.607,2
737.172,545.191,2
737.745,611.735,2
738.318,676.51,2
738.891,601.9,2
739.464,649.931,2
740.037,648.297,2
740.609,594.065,2
741.182,635.08,2
741.754,629.752,2
742.326,637.179,2
742.898,667.435,2
743.47,651.406,2
744.042,678.244,2
744.614,677.243,2
745.185,706.54,2
745.756,724.444,2
746.328,689.607,2
746.899,681.399,2
747.47,660.643,2
748.04,730.345,2
748.611,649.261,2
749.182,654.801,2
749.752,685.012,2
750.322,643.883,2
750.892,669.23,2
751.462,720.002,2
752.032,676.16,2
752.602,719.084,2
753.171,699.647,2
753.741,668.412,2
754.31,688.962,2
754.879,633.746,2
755.448,614.799,2
756.017,676.063,2
756.586,636.751,2
757.154,650.499,2
757.723,604.253,2
758.291,652.272,2
758.859,647.794,2
759.427,576.25,2
759.995,624.484,2
760.563,605.209,2
761.13,585.955,2
761.698,532.209,2
762.265,516.043,2
762.832,549.375,2
763.399,488.16,2
763.966,417.676,2
764.533,381.006,2
765.1,425.719,2
765.666,330.321,2
766.232,332.341,2
766.799,316.921,2
767.365,346.047,2
767.931,369.81,2
768.497,323.448,2
769.062,292.483,2
769.628,288.989,2
770.193,305.007,2
770.758,374.7385,2
771.323,381.05,2
771.888,348.064,2
772.453,396.367,2
773.018,410.109,2
773.583,412.39,2
774.147,446.324,2
774.711,501.35,2
775.275,463.677,2
775.839,488.93,2
776.403,471.706,2
776.967,516.305,2
777.531,483.053,2
778.094,528.784,2
778.657,512.649,2
779.22,501.635,2
779.783,496.7636,2
780.346,480.897,2
780.909,511.441,2
781.472,447.236,2
782.034,478.728,2
782.597,492.098,2
783.159,528.63,2
783.721,492.056,2
784.283,513.048,2
784.844,464.205,2
785.406,490.202,2
785.968,431.48,2
786.529,469.986,2
787.09,478.507,2
787.651,506.687,2
788.212,451.5866,2
788.773,468.023,2
789.334,441.796,2
789.894,467.571,2
790.455,468.109,2
791.015,461.285,2
791.575,455.236,2
792.135,448.8831,2
792.695,456.9497,2
793.254,427.237,2
793.814,403.58,2
794.373,437.439,2
794.933,414.593,2
795.492,445.145,2
796.051,382.802,2
796.61,405.153,2
797.168,377.957,2
797.727,412.089,2
798.285,385.68,2
798.844,385.755,2
799.402,371.119,2
799.96,438.09,2
800.518,417.994,2
801.075,399.153,2
801.633,354.089,2
802.19,359.059,2
802.748,433.201,2
803.305,337.283,2
803.862,419.882,2
804.419,391.343,2
804.976,403.402,2
805.532,372.473,2
806.089,358.826,2
806.645,385.343,2
807.201,334.83,2
807.757,362.486,2
808.313,408.677,2
808.869,388.375,2
809.425,373.327,2
809.98,387.395,2
810.536,385.053,2
811.091,403.816,2
811.646,371.881,2
812.201,378.127,2
812.756,363.321,2
813.31,301.526,2
813.865,354.874,2
814.419,325.686,2
814.973,338.375,2
815.528,330.301,2
816.081,307.192,2
816.635,316.826,2
817.189,293.816,2
817.743,283.121,2
818.296,293.61,2
818.849,258.717,2
819.402,270.97,2
819.955,269.71,2
820.508,290.958,2
821.061,263.25,2
821.613,245.875,2
822.166,214.007,2
822.718,222.714,2
823.27,264.209,2
823.822,213.022,2
824.374,225.701,2
824.926,252.323,2
825.477,190.81,2
826.029,209.104,2
826.58,220.038,2
827.131,209.631,2
827.682,217.973,2
828.233,249.294,2
828.784,234.713,2
829.335,217.399,2
829.885,164.918,2
830.435,220.292,2
830.985,213.8168,2
831.535,164.611,2
832.085,210.583,2
832.635,223.104,2
833.185,186.582,2
833.734,195.913,2
834.284,249.429,2
834.833,216.911,2
835.382,238.642,2
835.931,247.337,2
836.479,199.915,2
837.028,261.337,2
837.577,258.241,2
838.125,180.57,2
838.673,218.26,2
839.221,223.533,2
839.769,259.075,2
840.317,248.926,2
840.865,184.082,2
841.412,233.603,2
841.959,233.386,2
842.507,217.579,2
843.054,213.551,2
843.601,223.087,2
844.147,236.376,2
844.694,238.742,2
845.241,228.82,2
845.787,220.556,2
846.333,187.082,2
846.879,242.364,2
847.425,209.433,2
847.971,232.089,2
848.517,194.9383,2
849.062,207.876,2
849.608,183.766,2
850.153,236.619,2
850.698,267.214,2
851.243,193.425,2
851.788,227.9266,2
852.333,202.954,2
852.877,190.335,2
853.422,210.125,2
853.966,273.186,2
854.51,190.152,2
855.054,193.799,2
855.598,223.172,2
856.141,170.632,2
856.685,140.819,2
857.228,212.538,2
857.772,196.856,2
858.315,171.2727,2
858.858,200.467,2
859.401,179.171,2
859.943,173.4194,2
860.486,189.844,2
861.028,121.248,2
861.571,189.228,2
862.113,187.632,2
862.655,221.821,2
863.197,181.549,2
863.738,195.556,2
864.28,174.064,2
864.821,169.079,2
865.363,178.02,2
865.904,212.516,2
866.445,190.894,2
866.986,149.673,2
867.526,189.372,2
868.067,193.818,2
868.607,211.7,2
869.148,193.547,2
869.688,145.38,2
870.228,160.677,2
870.768,168.554,2
871.307,204.724,2
871.847,142.002,2
872.387,154.021,2
872.926,192.733,2
873.465,189.907,2
874.004,173.823,2
874.543,201.808,2
875.082,159.065,2
875.62,136.491,2
876.159,163.444,2
876.697,160.597,2
877.235,82.9615,2
877.773,126.916,2
878.311,175.948,2
878.849,161.75,2
879.387,161.768,2
879.924,134.144,2
880.461,190.053,2
880.998,177.612,2
881.536,182.715,2
882.072,146.525,2
882.609,187.569,2
883.146,168.1173,2
883.682,94.2817,2
884.219,131.316,2
884.755,120.724,2
885.291,164.159,2
885.827,171.995,2
886.363,140.026,2
886.898,146.026,2
887.434,125.371,2
887.969,142.763,2
888.504,117.924,2
889.039,150.129,2
889.574,135.91,2
890.109,134.329,2
890.643,185.049,2
891.178,140.087,2
891.712,141.144,2
892.247,139.937,2
892.781,148.918,2
893.314,216.591,2
893.848,155.8355,2
894.382,128.1015,2
894.915,122.138,2
895.449,135.381,2
895.982,100.986,2
896.515,101.154,2
897.048,136.093,2
897.581,127.541,2
898.113,121.9,2
898.646,83.0379,2
899.178,129.855,2
899.71,110.7045,2
900.242,150.414,2
900.774,101.001,2
901.306,62.25975,2
901.838,93.8167,2
902.369,62.2975,2
902.901,97.19758,2
903.432,37.4589,2
903.963,47.6764,2
904.494,94.4296,2
905.024,43.1568,2
905.555,111.214,2
906.086,79.57661,2
906.616,49.8765,2
907.146,26.743,2
907.676,87.6574,2
908.206,53.2573,2
908.736,82.07929,2
909.266,82.4259,2
909.795,136.187,2
910.324,107.991,2
910.854,68.6055,2
911.383,106.669,2
911.912,58.9126,2
912.44,59.36606,2
912.969,88.1276,2
913.498,81.39312,2
914.026,81.3887,2
914.554,101.807,2
915.082,95.5702,2
915.61,34.1056,2
916.138,70.7722,2
916.665,41.4373,2
917.193,67.35042,2
917.72,84.313,2
918.247,27.32995,2
918.775,66.2479,2
919.301,79.7375,2
919.828,65.6627,2
920.355,19.866,2
920.881,80.9354,2
921.408,65.08538,2
921.934,49.3612,2
922.46,58.3692,2
922.986,14.3811,2
923.512,98.74922,2
924.037,41.41908,2
924.563,58.2854,2
925.088,66.7703,2
925.613,90.4331,2
926.138,74.1973,2
926.663,88.2104,2
927.188,44.8636,2
927.713,56.1556,2
928.237,97.7473,2
928.761,43.10408,2
929.286,90.5112,2
929.81,20.0311,2
930.334,61.773,2
930.857,36.94052,2
931.381,10.43044,2
931.904,12.13795,2
932.428,-20.5782,2
932.951,49.9397,2
933.474,43.1761,2
933.997,80.97772,2
934.52,66.3547,2
935.042,26.2659,2
935.565,-5.362955,2
936.087,55.51723,2
936.609,-9.87504,2
937.131,-3.100795,2
937.653,-25.1084,2
938.175,12.69021,2
938.697,5.35933,2
939.218,-20.5798,2
939.739,-32.4605,2
940.261,5.92057,2
940.782,10.42769,2
941.302,7.04503,2
941.823,3.66888,2
942.344,-5.933535,2
942.864,33.0222,2
943.385,-1.97493,2
943.905,-3.66581,2
944.425,55.6061,2
944.945,-20.0474,2
945.464,15.5207,2
945.984,-4.235125,2
946.503,7.61648,2
947.023,36.91824,2
947.542,7.05451,2
948.061,-3.10098,2
948.58,22.86496,2
949.099,14.9525,2
949.617,-7.0588,2
950.136,-12.6888,2
950.654,26.7941,2
951.172,7.0483,2
951.69,6.49935,2
952.208,-32.9958,2
952.726,10.99445,2
953.243,17.1957,2
953.761,9.87435,2
954.278,-33.52568,2
954.795,13.2677,2
955.312,1.40919,2
955.829,34.12496,2
956.346,21.7301,2
956.862,-3.66865,2
957.379,-22.29041,2
957.895,17.2056,2
958.411,8.744325,2
958.927,-9.89885,2
959.443,44.33526,2
959.959,11.565,2
960.474,1.97136,2
960.99,8.73903,2
961.505,22.85471,2
962.02,21.73518,2
962.535,7.03341,2
963.05,7.050055,2
963.564,21.68626,2
964.079,-30.2047,2
964.593,13.2729,2
965.108,28.5026,2
965.622,-16.6562,2
966.136,-14.40118,2
966.65,-1.4166,2
967.163,-0.30152,2
967.677,27.9196,2
968.19,41.53398,2
968.703,9.30727,2
969.216,31.8846,2
969.729,-4.229445,2
970.242,44.3177,2
970.755,21.155,2
971.267,-8.743945,2
971.78,-15.49768,2
972.292,-30.1579,2
972.804,59.4916,2
973.316,38.08842,2
973.828,0.28177,2
974.339,-9.8821,2
974.851,-17.21973,2
975.362,41.98709,2
975.874,-18.8752,2
976.385,25.08402,2
976.896,18.32965,2
977.406,43.72426,2
977.917,-29.0558,2
978.427,-1.41236,2
978.938,40.92056,2
979.448,-14.37616,2
979.958,12.1264,2
980.468,17.21763,2
980.978,22.8301,2
981.487,-11.576,2
981.997,-1.413455,2
982.506,22.2855,2
983.015,6.4677,2
983.524,24.51954,2
984.033,34.7239,2
984.542,-8.75394,2
985.051,8.738765,2
985.559,8.71113,2
986.067,-1.41319,2
986.576,43.17866,2
987.084,49.9301,2
987.591,-13.8244,2
988.099,51.6336,2
988.607,34.1533,2
989.114,-3.10608,2
989.621,9.29704,2
990.129,3.1002,2
990.636,-7.62439,2
991.142,34.1484,2
991.649,-4.794755,2
992.156,5.360545,2
992.662,32.63809,2
993.168,13.8222,2
993.675,-30.18592,2
994.181,-7.59724,2
994.686,-22.28579,2
995.192,65.708,2
995.698,14.9599,2
996.203,47.6737,2
996.708,-35.1888,2
997.213,27.95965,2
997.718,-14.9219,2
998.223,29.05333,2
998.728,44.2565,2
999.232,-41.37451,2
999.737,-21.1882,2
1000.241,-5.38152,2
1000.745,36.41233,2
1001.249,-3.105225,2
1001.753,13.25596,2
1002.256,4.22646,2
1002.76,19.4473,2
1003.263,0.281785,2
1003.767,18.88227,2
1004.27,22.8435,2
1004.773,-12.1139,2
1005.275,-1.41184,2
1005.778,53.3482,2
1006.28,12.6872,2
1006.783,-4.79619,2
1007.285,-24.0027,2
1007.787,-0.846675,2
1008.289,-60.0522,2
1008.791,-9.309435,2
1009.292,-5.36656,2
1009.794,3.10107,2
1010.295,-26.2353,2
1010.796,4.799025,2
1011.297,-25.1164,2
1011.798,-67.34082,2
1012.299,-9.873925,2
1012.799,42.0915,2
1013.3,-35.2701,2
1013.8,13.24728,2
1014.3,-0.84851,2
1014.8,-3.10659,2
1015.3,29.0549,2
1015.8,10.4184,2
1016.3,31.2538,2
1016.799,-13.8276,2
1017.298,30.7321,2
1017.797,-35.8276,2
1018.296,9.30201,2
1018.795,7.0525,2
1019.294,-10.439,2
1019.792,-1.97629,2
1020.291,20.01906,2
1020.789,-13.2681,2
1021.287,-10.98647,2
1021.785,22.85245,2
1022.283,5.35134,2
1022.781,15.48878,2
1023.278,47.5889,2
1023.775,-79.33275,2
1024.273,-37.5514,2
1024.77,81.60413,2
1025.267,-5.35895,2
1025.763,-0.850755,2
1026.26,36.9603,2
1026.757,5.913735,2
1027.253,-4.79987,2
1027.749,-20.61712,2
1028.245,29.06904,2
1028.741,-5.3663,2
1029.237,-29.0712,2
1029.732,12.7065,2
1030.228,34.7013,2
1030.723,-5.92532,2
1031.218,10.4386,2
1031.713,45.4588,2
1032.208,-6.485015,2
1032.703,9.30667,2
1033.198,9.3217,2
1033.692,-10.4349,2
1034.186,46.5693,2
1034.68,5.918725,2
1035.174,0.275725,2
1035.668,48.17816,2
1036.162,-20.0424,2
1036.655,0.279855,2
1037.149,-21.1402,2
1037.642,-24.53086,2
1038.135,19.44307,2
1038.628,4.79562,2
1039.121,-26.2374,2
1039.614,16.0718,2
1040.106,3.10207,2
1040.599,22.86021,2
1041.091,42.0751,2
1041.583,-29.05294,2
1042.075,-16.64262,2
1042.567,13.8054,2
1043.058,-8.741625,2
1043.55,-2.54029,2
1044.041,53.29057,2
1044.532,22.8528,2
1045.023,-8.188315,2
1045.514,0.275965,2
1045.841,-15.4973,2